{
  "resourceType": "Bundle",
  "id": "bundle-collection-842302-v2",
  "type": "collection",
  "entry": [
    {
      "fullUrl": "urn:uuid:patient-842302",
      "resource": {
        "resourceType": "Patient",
        "identifier": [
          {
            "system": "http://example.org/datasets/wisconsin-cancer",
            "value": "842302"
          }
        ]
      }
    },
    {
      "fullUrl": "urn:uuid:panel-842302",
      "resource": {
        "resourceType": "Observation",
        "id": "panel-842302",
        "status": "final",
        "code": {
          "coding": [
            {
              "system": "http://agedap_medical.com/codes/breast-cancer-screening",
              "code": "wisconsin-fna-panel",
              "display": "Wisconsin Breast Cancer FNA Image Analysis Panel"
            }
          ]
        },
        "subject": {
          "reference": "urn:uuid:patient-842302"
        },
        "hasMember": [
          { "reference": "urn:uuid:obs-1-radius_mean" },
          { "reference": "urn:uuid:obs-2-texture_mean" },
          { "reference": "urn:uuid:obs-3-perimeter_mean" },
          { "reference": "urn:uuid:obs-4-area_mean" },
          { "reference": "urn:uuid:obs-5-smoothness_mean" },
          { "reference": "urn:uuid:obs-6-compactness_mean" },
          { "reference": "urn:uuid:obs-7-concavity_mean" },
          { "reference": "urn:uuid:obs-8-concave_points_mean" },
          { "reference": "urn:uuid:obs-9-symmetry_mean" },
          { "reference": "urn:uuid:obs-10-fractal_dimension_mean" },
          { "reference": "urn:uuid:obs-11-radius_se" },
          { "reference": "urn:uuid:obs-12-texture_se" },
          { "reference": "urn:uuid:obs-13-perimeter_se" },
          { "reference": "urn:uuid:obs-14-area_se" },
          { "reference": "urn:uuid:obs-15-smoothness_se" },
          { "reference": "urn:uuid:obs-16-compactness_se" },
          { "reference": "urn:uuid:obs-17-concavity_se" },
          { "reference": "urn:uuid:obs-18-concave_points_se" },
          { "reference": "urn:uuid:obs-19-symmetry_se" },
          { "reference": "urn:uuid:obs-20-fractal_dimension_se" },
          { "reference": "urn:uuid:obs-21-radius_worst" },
          { "reference": "urn:uuid:obs-22-texture_worst" },
          { "reference": "urn:uuid:obs-23-perimeter_worst" },
          { "reference": "urn:uuid:obs-24-area_worst" },
          { "reference": "urn:uuid:obs-25-smoothness_worst" },
          { "reference": "urn:uuid:obs-26-compactness_worst" },
          { "reference": "urn:uuid:obs-27-concavity_worst" },
          { "reference": "urn:uuid:obs-28-concave_points_worst" },
          { "reference": "urn:uuid:obs-29-symmetry_worst" },
          { "reference": "urn:uuid:obs-30-fractal_dimension_worst" }
        ]
      }
    },
    { "fullUrl": "urn:uuid:obs-1-radius_mean", "resource": { "resourceType": "Observation", "status": "final", "partOf": [{"reference": "urn:uuid:panel-842302"}], "code": {"coding": [{"system": "http://agedap_medical.com/codes/breast-cancer-screening", "code": "radius_mean", "display": "Radius Mean"}]}, "subject": {"reference": "urn:uuid:patient-842302"}, "valueQuantity": {"value": 17.99}}},
    { "fullUrl": "urn:uuid:obs-2-texture_mean", "resource": { "resourceType": "Observation", "status": "final", "partOf": [{"reference": "urn:uuid:panel-842302"}], "code": {"coding": [{"system": "http://agedap_medical.com/codes/breast-cancer-screening", "code": "texture_mean", "display": "Texture Mean"}]}, "subject": {"reference": "urn:uuid:patient-842302"}, "valueQuantity": {"value": 10.38}}},
    { "fullUrl": "urn:uuid:obs-3-perimeter_mean", "resource": { "resourceType": "Observation", "status": "final", "partOf": [{"reference": "urn:uuid:panel-842302"}], "code": {"coding": [{"system": "http://agedap_medical.com/codes/breast-cancer-screening", "code": "perimeter_mean", "display": "Perimeter Mean"}]}, "subject": {"reference": "urn:uuid:patient-842302"}, "valueQuantity": {"value": 122.8}}},
    { "fullUrl": "urn:uuid:obs-4-area_mean", "resource": { "resourceType": "Observation", "status": "final", "partOf": [{"reference": "urn:uuid:panel-842302"}], "code": {"coding": [{"system": "http://agedap_medical.com/codes/breast-cancer-screening", "code": "area_mean", "display": "Area Mean"}]}, "subject": {"reference": "urn:uuid:patient-842302"}, "valueQuantity": {"value": 1001.0}}},
    { "fullUrl": "urn:uuid:obs-5-smoothness_mean", "resource": { "resourceType": "Observation", "status": "final", "partOf": [{"reference": "urn:uuid:panel-842302"}], "code": {"coding": [{"system": "http://agedap_medical.com/codes/breast-cancer-screening", "code": "smoothness_mean", "display": "Smoothness Mean"}]}, "subject": {"reference": "urn:uuid:patient-842302"}, "valueQuantity": {"value": 0.1184}}},
    { "fullUrl": "urn:uuid:obs-6-compactness_mean", "resource": { "resourceType": "Observation", "status": "final", "partOf": [{"reference": "urn:uuid:panel-842302"}], "code": {"coding": [{"system": "http://agedap_medical.com/codes/breast-cancer-screening", "code": "compactness_mean", "display": "Compactness Mean"}]}, "subject": {"reference": "urn:uuid:patient-842302"}, "valueQuantity": {"value": 0.2776}}},
    { "fullUrl": "urn:uuid:obs-7-concavity_mean", "resource": { "resourceType": "Observation", "status": "final", "partOf": [{"reference": "urn:uuid:panel-842302"}], "code": {"coding": [{"system": "http://agedap_medical.com/codes/breast-cancer-screening", "code": "concavity_mean", "display": "Concavity Mean"}]}, "subject": {"reference": "urn:uuid:patient-842302"}, "valueQuantity": {"value": 0.3001}}},
    { "fullUrl": "urn:uuid:obs-8-concave_points_mean", "resource": { "resourceType": "Observation", "status": "final", "partOf": [{"reference": "urn:uuid:panel-842302"}], "code": {"coding": [{"system": "http://agedap_medical.com/codes/breast-cancer-screening", "code": "concave_points_mean", "display": "Concave Points Mean"}]}, "subject": {"reference": "urn:uuid:patient-842302"}, "valueQuantity": {"value": 0.1471}}},
    { "fullUrl": "urn:uuid:obs-9-symmetry_mean", "resource": { "resourceType": "Observation", "status": "final", "partOf": [{"reference": "urn:uuid:panel-842302"}], "code": {"coding": [{"system": "http://agedap_medical.com/codes/breast-cancer-screening", "code": "symmetry_mean", "display": "Symmetry Mean"}]}, "subject": {"reference": "urn:uuid:patient-842302"}, "valueQuantity": {"value": 0.2419}}},
    { "fullUrl": "urn:uuid:obs-10-fractal_dimension_mean", "resource": { "resourceType": "Observation", "status": "final", "partOf": [{"reference": "urn:uuid:panel-842302"}], "code": {"coding": [{"system": "http://agedap_medical.com/codes/breast-cancer-screening", "code": "fractal_dimension_mean", "display": "Fractal Dimension Mean"}]}, "subject": {"reference": "urn:uuid:patient-842302"}, "valueQuantity": {"value": 0.07871}}},
    { "fullUrl": "urn:uuid:obs-11-radius_se", "resource": { "resourceType": "Observation", "status": "final", "partOf": [{"reference": "urn:uuid:panel-842302"}], "code": {"coding": [{"system": "http://agedap_medical.com/codes/breast-cancer-screening", "code": "radius_se", "display": "Radius Se"}]}, "subject": {"reference": "urn:uuid:patient-842302"}, "valueQuantity": {"value": 1.095}}},
    { "fullUrl": "urn:uuid:obs-12-texture_se", "resource": { "resourceType": "Observation", "status": "final", "partOf": [{"reference": "urn:uuid:panel-842302"}], "code": {"coding": [{"system": "http://agedap_medical.com/codes/breast-cancer-screening", "code": "texture_se", "display": "Texture Se"}]}, "subject": {"reference": "urn:uuid:patient-842302"}, "valueQuantity": {"value": 0.9053}}},
    { "fullUrl": "urn:uuid:obs-13-perimeter_se", "resource": { "resourceType": "Observation", "status": "final", "partOf": [{"reference": "urn:uuid:panel-842302"}], "code": {"coding": [{"system": "http://agedap_medical.com/codes/breast-cancer-screening", "code": "perimeter_se", "display": "Perimeter Se"}]}, "subject": {"reference": "urn:uuid:patient-842302"}, "valueQuantity": {"value": 8.589}}},
    { "fullUrl": "urn:uuid:obs-14-area_se", "resource": { "resourceType": "Observation", "status": "final", "partOf": [{"reference": "urn:uuid:panel-842302"}], "code": {"coding": [{"system": "http://agedap_medical.com/codes/breast-cancer-screening", "code": "area_se", "display": "Area Se"}]}, "subject": {"reference": "urn:uuid:patient-842302"}, "valueQuantity": {"value": 153.4}}},
    { "fullUrl": "urn:uuid:obs-15-smoothness_se", "resource": { "resourceType": "Observation", "status": "final", "partOf": [{"reference": "urn:uuid:panel-842302"}], "code": {"coding": [{"system": "http://agedap_medical.com/codes/breast-cancer-screening", "code": "smoothness_se", "display": "Smoothness Se"}]}, "subject": {"reference": "urn:uuid:patient-842302"}, "valueQuantity": {"value": 0.006399}}},
    { "fullUrl": "urn:uuid:obs-16-compactness_se", "resource": { "resourceType": "Observation", "status": "final", "partOf": [{"reference": "urn:uuid:panel-842302"}], "code": {"coding": [{"system": "http://agedap_medical.com/codes/breast-cancer-screening", "code": "compactness_se", "display": "Compactness Se"}]}, "subject": {"reference": "urn:uuid:patient-842302"}, "valueQuantity": {"value": 0.04904}}},
    { "fullUrl": "urn:uuid:obs-17-concavity_se", "resource": { "resourceType": "Observation", "status": "final", "partOf": [{"reference": "urn:uuid:panel-842302"}], "code": {"coding": [{"system": "http://agedap_medical.com/codes/breast-cancer-screening", "code": "concavity_se", "display": "Concavity Se"}]}, "subject": {"reference": "urn:uuid:patient-842302"}, "valueQuantity": {"value": 0.05373}}},
    { "fullUrl": "urn:uuid:obs-18-concave_points_se", "resource": { "resourceType": "Observation", "status": "final", "partOf": [{"reference": "urn:uuid:panel-842302"}], "code": {"coding": [{"system": "http://agedap_medical.com/codes/breast-cancer-screening", "code": "concave_points_se", "display": "Concave Points Se"}]}, "subject": {"reference": "urn:uuid:patient-842302"}, "valueQuantity": {"value": 0.01587}}},
    { "fullUrl": "urn:uuid:obs-19-symmetry_se", "resource": { "resourceType": "Observation", "status": "final", "partOf": [{"reference": "urn:uuid:panel-842302"}], "code": {"coding": [{"system": "http://agedap_medical.com/codes/breast-cancer-screening", "code": "symmetry_se", "display": "Symmetry Se"}]}, "subject": {"reference": "urn:uuid:patient-842302"}, "valueQuantity": {"value": 0.03003}}},
    { "fullUrl": "urn:uuid:obs-20-fractal_dimension_se", "resource": { "resourceType": "Observation", "status": "final", "partOf": [{"reference": "urn:uuid:panel-842302"}], "code": {"coding": [{"system": "http://agedap_medical.com/codes/breast-cancer-screening", "code": "fractal_dimension_se", "display": "Fractal Dimension Se"}]}, "subject": {"reference": "urn:uuid:patient-842302"}, "valueQuantity": {"value": 0.006193}}},
    { "fullUrl": "urn:uuid:obs-21-radius_worst", "resource": { "resourceType": "Observation", "status": "final", "partOf": [{"reference": "urn:uuid:panel-842302"}], "code": {"coding": [{"system": "http://agedap_medical.com/codes/breast-cancer-screening", "code": "radius_worst", "display": "Radius Worst"}]}, "subject": {"reference": "urn:uuid:patient-842302"}, "valueQuantity": {"value": 25.38}}},
    { "fullUrl": "urn:uuid:obs-22-texture_worst", "resource": { "resourceType": "Observation", "status": "final", "partOf": [{"reference": "urn:uuid:panel-842302"}], "code": {"coding": [{"system": "http://agedap_medical.com/codes/breast-cancer-screening", "code": "texture_worst", "display": "Texture Worst"}]}, "subject": {"reference": "urn:uuid:patient-842302"}, "valueQuantity": {"value": 17.33}}},
    { "fullUrl": "urn:uuid:obs-23-perimeter_worst", "resource": { "resourceType": "Observation", "status": "final", "partOf": [{"reference": "urn:uuid:panel-842302"}], "code": {"coding": [{"system": "http://agedap_medical.com/codes/breast-cancer-screening", "code": "perimeter_worst", "display": "Perimeter Worst"}]}, "subject": {"reference": "urn:uuid:patient-842302"}, "valueQuantity": {"value": 184.6}}},
    { "fullUrl": "urn:uuid:obs-24-area_worst", "resource": { "resourceType": "Observation", "status": "final", "partOf": [{"reference": "urn:uuid:panel-842302"}], "code": {"coding": [{"system": "http://agedap_medical.com/codes/breast-cancer-screening", "code": "area_worst", "display": "Area Worst"}]}, "subject": {"reference": "urn:uuid:patient-842302"}, "valueQuantity": {"value": 2019.0}}},
    { "fullUrl": "urn:uuid:obs-25-smoothness_worst", "resource": { "resourceType": "Observation", "status": "final", "partOf": [{"reference": "urn:uuid:panel-842302"}], "code": {"coding": [{"system": "http://agedap_medical.com/codes/breast-cancer-screening", "code": "smoothness_worst", "display": "Smoothness Worst"}]}, "subject": {"reference": "urn:uuid:patient-842302"}, "valueQuantity": {"value": 0.1622}}},
    { "fullUrl": "urn:uuid:obs-26-compactness_worst", "resource": { "resourceType": "Observation", "status": "final", "partOf": [{"reference": "urn:uuid:panel-842302"}], "code": {"coding": [{"system": "http://agedap_medical.com/codes/breast-cancer-screening", "code": "compactness_worst", "display": "Compactness Worst"}]}, "subject": {"reference": "urn:uuid:patient-842302"}, "valueQuantity": {"value": 0.6656}}},
    { "fullUrl": "urn:uuid:obs-27-concavity_worst", "resource": { "resourceType": "Observation", "status": "final", "partOf": [{"reference": "urn:uuid:panel-842302"}], "code": {"coding": [{"system": "http://agedap_medical.com/codes/breast-cancer-screening", "code": "concavity_worst", "display": "Concavity Worst"}]}, "subject": {"reference": "urn:uuid:patient-842302"}, "valueQuantity": {"value": 0.7119}}},
    { "fullUrl": "urn:uuid:obs-28-concave_points_worst", "resource": { "resourceType": "Observation", "status": "final", "partOf": [{"reference": "urn:uuid:panel-842302"}], "code": {"coding": [{"system": "http://agedap_medical.com/codes/breast-cancer-screening", "code": "concave_points_worst", "display": "Concave Points Worst"}]}, "subject": {"reference": "urn:uuid:patient-842302"}, "valueQuantity": {"value": 0.2654}}},
    { "fullUrl": "urn:uuid:obs-29-symmetry_worst", "resource": { "resourceType": "Observation", "status": "final", "partOf": [{"reference": "urn:uuid:panel-842302"}], "code": {"coding": [{"system": "http://agedap_medical.com/codes/breast-cancer-screening", "code": "symmetry_worst", "display": "Symmetry Worst"}]}, "subject": {"reference": "urn:uuid:patient-842302"}, "valueQuantity": {"value": 0.4601}}},
    { "fullUrl": "urn:uuid:obs-30-fractal_dimension_worst", "resource": { "resourceType": "Observation", "status": "final", "partOf": [{"reference": "urn:uuid:panel-842302"}], "code": {"coding": [{"system": "http://agedap_medical.com/codes/breast-cancer-screening", "code": "fractal_dimension_worst", "display": "Fractal Dimension Worst"}]}, "subject": {"reference": "urn:uuid:patient-842302"}, "valueQuantity": {"value": 0.1189}}}
  ]
}